Folder: Fe4Co3Ni_Gamry_electrochemdata

File: 20220408_SAS_AgBi3S5_LSV1.DTA
EXPLAIN
TAG	LSV
TITLE	LABEL		Test &Identifier
DATE	LABEL	7.4.2022	Date
TIME	LABEL	14:00:26	Time
NOTES	NOTES	2	&Notes...
	7,188938
	3,2644
PSTAT	PSTAT	REF600-23001	Potentiostat
VINIT	POTEN	-8,26000E-001	F	&Initial E (V)
VFINAL	POTEN	-1,62600E+000	F	&Final E (V)
SCANRATE	QUANT	4,99999E+000	&Scan Rate (mV/s)
STEPSIZE	QUANT	5,00000E-001	St&ep Size (mV)
IMODE	SELECTOR	0	I/E Range &Mode
IRANGE	QUANT	2,00000E+002	&Max Current (mA)
AREA	QUANT	1,00000E+000	Electrode &Area (cm^2)
ELECTRODETYPE	SELECTOR	0	Electrode Type
STRIPPING	TOGGLE	F	Used for Stripping
CONDIT	TWOPARAM	F	1,50000E+001	0,00000E+000	Conditionin&g	Time(s)	E(V)
DELAY	TWOPARAM	F	3,00000E+001	0,00000E+000	Init. De&lay	Time(s)	Stab.(mV/s)
EQDELAY	QUANT	1,00000E+001	Equil. &Time (s)
IRCOMP	SELECTOR	0	IRCom&p
PFCOR	QUANT	0,00000E+000	PF Corr. (ohm)
SAMPLINGMODE	SELECTOR	1	Sampling &Mode
EOC	QUANT	0	Open Circuit (V)
PSTATMODEL	IQUANT	4	Pstat Model
PSTATSECTION	LABEL	REF600-23001	Pstat Section
PSTATSERIALNO	LABEL	23001	Pstat Serial Number
CTRLMODE	IQUANT	1	Control Mode
ELECTROMETER	IQUANT	0	RE=0 or CS=1
IESTAB	IQUANT	2	I/E Stability
CASPEED	IQUANT	4	Control Amp Speed
CONVENTION	IQUANT	1	Current Convention
ICHRANGE	IQUANT	2	Ich Range
ICHRANGEMODE	TOGGLE	F	Ich Auto Range
ICHOFFSETENABLE	TOGGLE	F	Ich Offset Enable
ICHOFFSET	QUANT	0	Ich Offset (V)
ICHFILTER	IQUANT	2	Ich Filter
VCHRANGE	IQUANT	2	Vch Range
VCHRANGEMODE	TOGGLE	F	Vch Auto Range
VCHOFFSETENABLE	TOGGLE	F	Vch Offset Enable
VCHOFFSET	QUANT	0	Vch Offset (V)
VCHFILTER	IQUANT	2	Vch Filter
ACHRANGE	IQUANT	2	Ach Range
ACHOFFSETENABLE	TOGGLE	F	Ach Offset Enable
ACHOFFSET	QUANT	0	Ach Offset (V)
ACHFILTER	IQUANT	0	Ach Filter
IERANGELOWERLIMIT	IQUANT	1	I/E Range Lower Limit
IERANGEMODE	TOGGLE	T	I/E AutoRange
IERANGE	IQUANT	11	I/E Range
POSFEEDENABLE	TOGGLE	F	Positive Feedback IR Comp
POSFEEDRESISTANCE	QUANT	0	Positive Feedback Resistance (ohm)
ACHSELECT	IQUANT	4	Ach Select
SENSECABLEID	IQUANT	13	Sense Cable ID
PWRCABLEID	IQUANT	13	Power Cable ID
DCCALDATE	LABEL	2/25/2022	DC Calibration Date
ACCALDATE	LABEL	2/25/2022	AC Calibration Date
THERMOSELECT	IQUANT	1	Thermo Select
FRAMEWORKVERSION	LABEL	7.9.0	Framework Version
INSTRUMENTVERSION	LABEL	4.60	Instrument Version
CURVE	TABLE	1601
	Pt	T	Vf	Im	Vu	Sig	Ach	IERange	Over	Cycle	Temp
	#	s	V vs. Ref.	A	V	V	V	#	bits	#	deg C
	0	0,1	-8,25101E-001	-1,19814E-003	0,00000E+000	-8,26000E-001	4,40717E-005	11	...........	0	-327,67
	17	1,8	-8,33587E-001	-1,30683E-003	0,00000E+000	-8,34500E-001	5,04717E-005	9	...........	0	-327,67
	34	3,5	-8,42077E-001	-1,40269E-003	0,00000E+000	-8,43000E-001	5,26717E-005	9	...........	0	-327,67
	51	5,2	-8,50556E-001	-1,48705E-003	0,00000E+000	-8,51500E-001	4,44717E-005	9	...........	0	-327,67
	68	6,9	-8,59062E-001	-1,63561E-003	0,00000E+000	-8,60000E-001	5,08717E-005	9	...........	0	-327,67
	85	8,6	-8,67542E-001	-1,87488E-003	0,00000E+000	-8,68500E-001	5,22717E-005	9	...........	0	-327,67
	102	10,3	-8,76028E-001	-2,12619E-003	0,00000E+000	-8,77000E-001	4,74717E-005	9	...........	0	-327,67
	119	12	-8,84535E-001	-2,31033E-003	0,00000E+000	-8,85500E-001	4,86717E-005	9	...........	0	-327,67
	136	13,7	-8,93015E-001	-2,48487E-003	0,00000E+000	-8,94000E-001	4,98717E-005	9	...........	0	-327,67
	153	15,4	-9,01489E-001	-2,61746E-003	0,00000E+000	-9,02500E-001	5,26717E-005	9	...........	0	-327,67
	170	17,1	-9,10003E-001	-2,75007E-003	0,00000E+000	-9,11000E-001	5,44717E-005	9	...........	0	-327,67
	187	18,8	-9,18499E-001	-2,71391E-003	0,00000E+000	-9,19500E-001	4,70717E-005	9	...........	0	-327,67
	204	20,5	-9,26968E-001	-2,64592E-003	0,00000E+000	-9,28000E-001	5,28717E-005	9	...........	0	-327,67
	221	22,2	-9,35482E-001	-2,60502E-003	0,00000E+000	-9,36500E-001	5,00717E-005	9	...........	0	-327,67
	238	23,9	-9,43964E-001	-2,68687E-003	0,00000E+000	-9,45000E-001	5,02717E-005	9	...........	0	-327,67
	255	25,6	-9,52460E-001	-2,60832E-003	0,00000E+000	-9,53500E-001	4,96717E-005	9	...........	0	-327,67
	272	27,3	-9,60994E-001	-2,37284E-003	0,00000E+000	-9,62000E-001	4,02717E-005	9	...........	0	-327,67
	289	29	-9,69479E-001	-2,22623E-003	0,00000E+000	-9,70500E-001	5,40717E-005	9	...........	0	-327,67
	306	30,7	-9,77989E-001	-2,13092E-003	0,00000E+000	-9,79000E-001	4,80717E-005	9	...........	0	-327,67
	323	32,4	-9,86505E-001	-2,08238E-003	0,00000E+000	-9,87500E-001	4,36717E-005	9	...........	0	-327,67
	340	34,1	-9,95003E-001	-1,99240E-003	0,00000E+000	-9,96000E-001	4,80717E-005	9	...........	0	-327,67
	357	35,8	-1,00349E+000	-1,84393E-003	0,00000E+000	-1,00450E+000	4,36717E-005	9	...........	0	-327,67
	374	37,5	-1,01202E+000	-1,72343E-003	0,00000E+000	-1,01300E+000	5,74717E-005	9	...........	0	-327,67
	391	39,2	-1,02051E+000	-1,70313E-003	0,00000E+000	-1,02150E+000	5,20717E-005	9	...........	0	-327,67
	408	40,9	-1,02900E+000	-1,77248E-003	0,00000E+000	-1,03000E+000	5,02717E-005	9	...........	0	-327,67
	425	42,6	-1,03750E+000	-1,76749E-003	0,00000E+000	-1,03850E+000	4,96717E-005	9	...........	0	-327,67
	442	44,3	-1,04599E+000	-1,76609E-003	0,00000E+000	-1,04700E+000	4,32717E-005	9	...........	0	-327,67
	459	46	-1,05448E+000	-1,68314E-003	0,00000E+000	-1,05550E+000	5,34717E-005	9	...........	0	-327,67
	476	47,7	-1,06299E+000	-1,77633E-003	0,00000E+000	-1,06400E+000	4,56717E-005	9	...........	0	-327,67
	493	49,4	-1,07148E+000	-1,87909E-003	0,00000E+000	-1,07250E+000	4,72717E-005	9	...........	0	-327,67
	510	51,1	-1,07996E+000	-2,02707E-003	0,00000E+000	-1,08100E+000	4,98717E-005	9	...........	0	-327,67
	527	52,8	-1,08848E+000	-2,01007E-003	0,00000E+000	-1,08950E+000	4,80717E-005	9	...........	0	-327,67
	544	54,5	-1,09699E+000	-1,88378E-003	0,00000E+000	-1,09800E+000	4,90717E-005	9	...........	0	-327,67
	561	56,2	-1,10545E+000	-1,99503E-003	0,00000E+000	-1,10650E+000	4,78717E-005	9	...........	0	-327,67
	578	57,9	-1,11398E+000	-2,04940E-003	0,00000E+000	-1,11500E+000	4,88717E-005	9	...........	0	-327,67
	595	59,6	-1,12246E+000	-2,23446E-003	0,00000E+000	-1,12350E+000	4,30717E-005	9	...........	0	-327,67
	612	61,3	-1,13092E+000	-2,30703E-003	0,00000E+000	-1,13200E+000	4,48717E-005	9	...........	0	-327,67
	629	63	-1,13944E+000	-2,28053E-003	0,00000E+000	-1,14050E+000	4,96717E-005	9	...........	0	-327,67
	646	64,7	-1,14793E+000	-2,13132E-003	0,00000E+000	-1,14900E+000	5,20717E-005	9	...........	0	-327,67
	663	66,4	-1,15642E+000	-2,09750E-003	0,00000E+000	-1,15750E+000	5,22717E-005	9	...........	0	-327,67
	680	68,1	-1,16495E+000	-2,01658E-003	0,00000E+000	-1,16600E+000	4,12717E-005	9	...........	0	-327,67
	697	69,8	-1,17344E+000	-1,95138E-003	0,00000E+000	-1,17450E+000	4,38717E-005	9	...........	0	-327,67
	714	71,5	-1,18194E+000	-1,97481E-003	0,00000E+000	-1,18300E+000	4,64717E-005	9	...........	0	-327,67
	731	73,2	-1,19045E+000	-1,99509E-003	0,00000E+000	-1,19150E+000	4,42717E-005	9	...........	0	-327,67
	748	74,9	-1,19894E+000	-1,96545E-003	0,00000E+000	-1,20000E+000	4,30717E-005	9	...........	0	-327,67
	765	76,6	-1,20744E+000	-1,94334E-003	0,00000E+000	-1,20850E+000	5,36717E-005	9	...........	0	-327,67
	782	78,3	-1,21595E+000	-1,90583E-003	0,00000E+000	-1,21700E+000	5,82717E-005	9	...........	0	-327,67
	799	80	-1,22444E+000	-1,89315E-003	0,00000E+000	-1,22550E+000	4,48717E-005	9	...........	0	-327,67
	816	81,7	-1,23296E+000	-1,91647E-003	0,00000E+000	-1,23400E+000	5,26717E-005	9	...........	0	-327,67
	833	83,4	-1,24147E+000	-1,86210E-003	0,00000E+000	-1,24250E+000	4,70717E-005	9	...........	0	-327,67
	850	85,1	-1,24996E+000	-1,89108E-003	0,00000E+000	-1,25100E+000	5,38717E-005	9	...........	0	-327,67
	867	86,8	-1,25844E+000	-1,89422E-003	0,00000E+000	-1,25950E+000	5,08717E-005	9	...........	0	-327,67
	884	88,5	-1,26696E+000	-1,88084E-003	0,00000E+000	-1,26800E+000	5,46717E-005	9	...........	0	-327,67
	901	90,2	-1,27545E+000	-1,93820E-003	0,00000E+000	-1,27650E+000	4,90717E-005	9	...........	0	-327,67
	918	91,9	-1,28394E+000	-1,95852E-003	0,00000E+000	-1,28500E+000	5,08717E-005	9	...........	0	-327,67
	935	93,6	-1,29245E+000	-1,92443E-003	0,00000E+000	-1,29350E+000	4,82717E-005	9	...........	0	-327,67
	952	95,3	-1,30097E+000	-1,95423E-003	0,00000E+000	-1,30200E+000	4,74717E-005	9	...........	0	-327,67
	969	97	-1,30945E+000	-1,96701E-003	0,00000E+000	-1,31050E+000	4,62717E-005	9	...........	0	-327,67
	986	98,7	-1,31794E+000	-1,98590E-003	0,00000E+000	-1,31900E+000	4,46717E-005	9	...........	0	-327,67
	1003	100,4	-1,32645E+000	-2,03482E-003	0,00000E+000	-1,32750E+000	4,54717E-005	9	...........	0	-327,67
	1020	102,1	-1,33490E+000	-2,09170E-003	0,00000E+000	-1,33600E+000	5,58717E-005	9	...........	0	-327,67
	1037	103,8	-1,34341E+000	-2,11088E-003	0,00000E+000	-1,34450E+000	4,62717E-005	9	...........	0	-327,67
	1054	105,5	-1,35191E+000	-2,08733E-003	0,00000E+000	-1,35300E+000	4,88717E-005	9	...........	0	-327,67
	1071	107,2	-1,36040E+000	-2,12118E-003	0,00000E+000	-1,36150E+000	5,08717E-005	9	...........	0	-327,67
	1088	108,9	-1,36890E+000	-2,20691E-003	0,00000E+000	-1,37000E+000	4,68717E-005	9	...........	0	-327,67
	1105	110,6	-1,37739E+000	-2,24681E-003	0,00000E+000	-1,37850E+000	5,18717E-005	9	...........	0	-327,67
	1122	112,3	-1,38589E+000	-2,25932E-003	0,00000E+000	-1,38700E+000	5,46717E-005	9	...........	0	-327,67
	1139	114	-1,39439E+000	-2,36553E-003	0,00000E+000	-1,39550E+000	5,34717E-005	9	...........	0	-327,67
	1156	115,7	-1,40289E+000	-2,43434E-003	0,00000E+000	-1,40400E+000	4,98717E-005	9	...........	0	-327,67
	1173	117,4	-1,41138E+000	-2,54115E-003	0,00000E+000	-1,41250E+000	4,84717E-005	9	...........	0	-327,67
	1190	119,1	-1,41987E+000	-2,66381E-003	0,00000E+000	-1,42100E+000	4,82717E-005	9	...........	0	-327,67
	1207	120,8	-1,42837E+000	-2,78965E-003	0,00000E+000	-1,42950E+000	4,36717E-005	9	...........	0	-327,67
	1224	122,5	-1,43682E+000	-3,05690E-003	0,00000E+000	-1,43800E+000	4,86717E-005	9	...........	0	-327,67
	1241	124,2	-1,44533E+000	-3,18471E-003	0,00000E+000	-1,44650E+000	4,94717E-005	9	...........	0	-327,67
	1258	125,9	-1,45382E+000	-3,56475E-003	0,00000E+000	-1,45500E+000	5,18717E-005	9	...........	0	-327,67
	1275	127,6	-1,46227E+000	-3,94116E-003	0,00000E+000	-1,46350E+000	4,48717E-005	9	...........	0	-327,67
	1292	129,3	-1,47076E+000	-4,28653E-003	0,00000E+000	-1,47200E+000	5,56717E-005	9	...........	0	-327,67
	1309	131	-1,47926E+000	-4,68187E-003	0,00000E+000	-1,48050E+000	5,26717E-005	9	...........	0	-327,67
	1326	132,7	-1,48773E+000	-5,19071E-003	0,00000E+000	-1,48900E+000	4,74717E-005	9	...........	0	-327,67
	1343	134,4	-1,49642E+000	-5,83018E-003	0,00000E+000	-1,49750E+000	4,84717E-005	10	...........	0	-327,67
	1360	136,1	-1,50495E+000	-6,18809E-003	0,00000E+000	-1,50600E+000	5,12717E-005	10	...........	0	-327,67
	1377	137,8	-1,51341E+000	-6,83432E-003	0,00000E+000	-1,51450E+000	4,92717E-005	10	...........	0	-327,67
	1394	139,5	-1,52191E+000	-7,44909E-003	0,00000E+000	-1,52300E+000	5,08717E-005	10	...........	0	-327,67
	1411	141,2	-1,53042E+000	-8,02353E-003	0,00000E+000	-1,53150E+000	5,26717E-005	10	...........	0	-327,67
	1428	142,9	-1,53888E+000	-9,27343E-003	0,00000E+000	-1,54000E+000	4,44717E-005	10	...........	0	-327,67
	1445	144,6	-1,54738E+000	-9,86462E-003	0,00000E+000	-1,54850E+000	4,44717E-005	10	...........	0	-327,67
	1462	146,3	-1,55587E+000	-1,10781E-002	0,00000E+000	-1,55700E+000	4,80717E-005	10	...........	0	-327,67
	1479	148	-1,56436E+000	-1,18798E-002	0,00000E+000	-1,56550E+000	4,90717E-005	10	...........	0	-327,67
	1496	149,7	-1,57285E+000	-1,27198E-002	0,00000E+000	-1,57400E+000	5,26717E-005	10	...........	0	-327,67
	1513	151,4	-1,58135E+000	-1,34323E-002	0,00000E+000	-1,58250E+000	4,90717E-005	10	...........	0	-327,67
	1530	153,1	-1,58983E+000	-1,43387E-002	0,00000E+000	-1,59100E+000	5,22717E-005	10	...........	0	-327,67
	1547	154,8	-1,59832E+000	-1,52931E-002	0,00000E+000	-1,59950E+000	4,72717E-005	10	...........	0	-327,67
	1564	156,5	-1,60684E+000	-1,67643E-002	0,00000E+000	-1,60800E+000	4,84717E-005	10	...........	0	-327,67
	1581	158,2	-1,61533E+000	-1,73442E-002	0,00000E+000	-1,61650E+000	4,22717E-005	10	...........	0	-327,67
	1598	159,9	-1,62379E+000	-1,86184E-002	0,00000E+000	-1,62500E+000	4,68717E-005	10	...........	0	-327,67
	1600	160,1	-1,62482E+000	-1,82521E-002	0,00000E+000	-1,62600E+000	4,86717E-005	10	...........	0	-327,67